Folder: VerklegEdlisfraedi/Röntgen

Note: Röntgen/README.md
Þetta directory inniheldur alla úrvinnslu sem og gögn úr röntgentilraun

Í python skránni X_Ray_analysis er að finna öll föll sem notuð voru til að lesa inn, vinna úr og plotta gögn

Skrárnar KEN008.py, KEN009.py og KEN_Comparison.py er sjálf úrvinnslan og kalla á föll úr X_Ray_analysis

Allar skrár eru merktar með nafni sem gefa til kynna um hvers kyns röntgenmælingu var um að ræða.

File: KEN008_XRD_40_85deg.xy
40.02000 68.0
40.18000 101.0
40.34000 127.0
40.50000 2731.0
40.66000 137.0
40.82000 102.0
40.98000 113.0
41.14000 115.0
41.30000 106.0
41.46000 114.0
41.62000 108.0
41.78000 142.0
41.94000 143.0
42.10000 144.0
42.26000 134.0
42.42000 180.0
42.58000 171.0
42.74000 260.0
42.90000 400.0
43.06000 6164.0
43.22000 521.0
43.38000 1275.0
43.54000 544.0
43.70000 543.0
43.86000 846.0
44.02000 1135.0
44.18000 1553.0
44.34000 2228.0
44.50000 3573.0
44.66000 6160.0
44.82000 25458.0
44.98000 675180.0
45.14000 985069.0
45.30000 17040.0
45.46000 7030.0
45.62000 4998.0
45.78000 3635.0
45.94000 2554.0
46.10000 1831.0
46.26000 1332.0
46.42000 959.0
46.58000 716.0
46.74000 556.0
46.90000 468.0
47.06000 402.0
47.22000 308.0
47.38000 293.0
47.54000 218.0
47.70000 240.0
47.86000 201.0
48.02000 179.0
48.18000 168.0
48.34000 166.0
48.50000 186.0
48.66000 200.0
48.82000 156.0
48.98000 135.0
49.14000 172.0
49.30000 167.0
49.46000 119.0
49.62000 127.0
49.78000 108.0
49.94000 111.0
50.10000 92.0
50.26000 103.0
50.42000 96.0
50.58000 82.0
50.74000 73.0
50.90000 93.0
51.06000 90.0
51.22000 73.0
51.38000 92.0
51.54000 82.0
51.70000 64.0
51.86000 73.0
52.02000 79.0
52.18000 72.0
52.34000 81.0
52.50000 64.0
52.66000 53.0
52.82000 58.0
52.98000 64.0
53.14000 65.0
53.30000 56.0
53.46000 61.0
53.62000 50.0
53.78000 59.0
53.94000 37.0
54.10000 50.0
54.26000 49.0
54.42000 50.0
54.58000 53.0
54.74000 45.0
54.90000 36.0
55.06000 58.0
55.22000 45.0
55.38000 48.0
55.54000 38.0
55.70000 49.0
55.86000 45.0
56.02000 47.0
56.18000 42.0
56.34000 34.0
56.50000 40.0
56.66000 46.0
56.82000 49.0
56.98000 38.0
57.14000 44.0
57.30000 42.0
57.46000 50.0
57.62000 52.0
57.78000 68.0
57.94000 121.0
58.10000 127.0
58.26000 75.0
58.42000 44.0
58.58000 56.0
58.74000 59.0
58.90000 45.0
59.06000 48.0
59.22000 56.0
59.38000 67.0
59.54000 50.0
59.70000 41.0
59.86000 55.0
60.02000 53.0
60.18000 52.0
60.34000 56.0
60.50000 53.0
60.66000 51.0
60.82000 58.0
60.98000 61.0
61.14000 70.0
61.30000 56.0
61.46000 82.0
61.62000 85.0
61.78000 192.0
61.94000 339.0
62.10000 186.0
62.26000 121.0
62.42000 156.0
62.58000 138.0
62.74000 123.0
62.90000 141.0
63.06000 148.0
63.22000 176.0
63.38000 170.0
63.54000 253.0
63.70000 264.0
63.86000 324.0
64.02000 461.0
64.18000 683.0
64.34000 1217.0
64.50000 2924.0
64.66000 9293.0
64.82000 48101.0
64.98000 62382.0
65.14000 34976.0
65.30000 5503.0
65.46000 1961.0
65.62000 1105.0
65.78000 797.0
65.94000 582.0
66.10000 499.0
66.26000 410.0
66.42000 306.0
66.58000 294.0
66.74000 256.0
66.90000 217.0
67.06000 207.0
67.22000 168.0
67.38000 166.0
67.54000 129.0
67.70000 100.0
67.86000 69.0
68.02000 76.0
68.18000 74.0
68.34000 63.0
68.50000 57.0
68.66000 59.0
68.82000 57.0
68.98000 44.0
69.14000 47.0
69.30000 52.0
69.46000 44.0
69.62000 42.0
69.78000 55.0
69.94000 1018.0
70.10000 126.0
70.26000 64.0
70.42000 60.0
70.58000 48.0
70.74000 35.0
70.90000 50.0
71.06000 38.0
71.22000 41.0
71.38000 39.0
71.54000 40.0
71.70000 26.0
71.86000 34.0
72.02000 34.0
72.18000 32.0
72.34000 29.0
72.50000 25.0
72.66000 30.0
72.82000 40.0
72.98000 35.0
73.14000 50.0
73.30000 36.0
73.46000 30.0
73.62000 28.0
73.78000 24.0
73.94000 34.0
74.10000 46.0
74.26000 29.0
74.42000 27.0
74.58000 28.0
74.74000 32.0
74.90000 26.0
75.06000 35.0
75.22000 39.0
75.38000 34.0
75.54000 29.0
75.70000 29.0
75.86000 26.0
76.02000 33.0
76.18000 25.0
76.34000 20.0
76.50000 28.0
76.66000 28.0
76.82000 32.0
76.98000 31.0
77.14000 27.0
77.30000 27.0
77.46000 27.0
77.62000 36.0
77.78000 28.0
77.94000 31.0
78.10000 27.0
78.26000 41.0
78.42000 25.0
78.58000 42.0
78.74000 34.0
78.90000 38.0
79.06000 26.0
79.22000 39.0
79.38000 34.0
79.54000 21.0
79.70000 23.0
79.86000 29.0
80.02000 24.0
80.18000 28.0
80.34000 40.0
80.50000 29.0
80.66000 30.0
80.82000 21.0
80.98000 31.0
81.14000 23.0
81.30000 32.0
81.46000 32.0
81.62000 28.0
81.78000 24.0
81.94000 29.0
82.10000 30.0
82.26000 25.0
82.42000 31.0
82.58000 25.0
82.74000 31.0
82.90000 21.0
83.06000 25.0
83.22000 17.0
83.38000 26.0
83.54000 40.0
83.70000 34.0
83.86000 29.0
84.02000 32.0
84.18000 22.0
84.34000 23.0
84.50000 26.0
84.66000 35.0
84.82000 39.0
84.98000 23.0

File: KEN008_XRD_65deg_phi180.xy
-89.800 3.0
-89.200 5.0
-88.600 3.0
-88.000 4.0
-87.400 5.0
-86.800 4.0
-86.200 5.0
-85.600 1.0
-85.000 1.0
-84.400 4.0
-83.800 3.0
-83.200 4.0
-82.600 6.0
-82.000 4.0
-81.400 4.0
-80.800 2.0
-80.200 3.0
-79.600 2.0
-79.000 0.0
-78.400 3.0
-77.800 1.0
-77.200 4.0
-76.600 5.0
-76.000 5.0
-75.400 4.0
-74.800 5.0
-74.200 3.0
-73.600 3.0
-73.000 1.0
-72.400 1.0
-71.800 1.0
-71.200 1.0
-70.600 4.0
-70.000 4.0
-69.400 3.0
-68.800 7.0
-68.200 2.0
-67.600 4.0
-67.000 4.0
-66.400 2.0
-65.800 1.0
-65.200 2.0
-64.600 3.0
-64.000 4.0
-63.400 3.0
-62.800 1.0
-62.200 2.0
-61.600 2.0
-61.000 4.0
-60.400 2.0
-59.800 5.0
-59.200 2.0
-58.600 4.0
-58.000 4.0
-57.400 3.0
-56.800 0.0
-56.200 2.0
-55.600 1.0
-55.000 3.0
-54.400 4.0
-53.800 2.0
-53.200 0.0
-52.600 4.0
-52.000 3.0
-51.400 2.0
-50.800 3.0
-50.200 1.0
-49.600 3.0
-49.000 3.0
-48.400 3.0
-47.800 1.0
-47.200 4.0
-46.600 3.0
-46.000 2.0
-45.400 2.0
-44.800 2.0
-44.200 4.0
-43.600 6.0
-43.000 2.0
-42.400 23.0
-41.800 7.0
-41.200 3.0
-40.600 2.0
-40.000 4.0
-39.400 6.0
-38.800 5.0
-38.200 0.0
-37.600 2.0
-37.000 2.0
-36.400 4.0
-35.800 5.0
-35.200 7.0
-34.600 2.0
-34.000 4.0
-33.400 1.0
-32.800 2.0
-32.200 1.0
-31.600 2.0
-31.000 3.0
-30.400 4.0
-29.800 2.0
-29.200 3.0
-28.600 0.0
-28.000 1.0
-27.400 5.0
-26.800 1.0
-26.200 4.0
-25.600 2.0
-25.000 0.0
-24.400 3.0
-23.800 5.0
-23.200 2.0
-22.600 2.0
-22.000 2.0
-21.400 1.0
-20.800 4.0
-20.200 6.0
-19.600 4.0
-19.000 5.0
-18.400 1.0
-17.800 2.0
-17.200 3.0
-16.600 2.0
-16.000 4.0
-15.400 2.0
-14.800 4.0
-14.200 0.0
-13.600 3.0
-13.000 2.0
-12.400 4.0
-11.800 1.0
-11.200 2.0
-10.600 4.0
-10.000 6.0
-9.400 0.0
-8.800 3.0
-8.200 4.0
-7.600 6.0
-7.000 2.0
-6.400 2.0
-5.800 1.0
-5.200 2.0
-4.600 4.0
-4.000 4.0
-3.400 2.0
-2.800 5.0
-2.200 9.0
-1.600 13.0
-1.000 8.0
-0.400 13.0
0.200 8.0
0.800 14.0
1.400 15.0
2.000 12.0
2.600 15.0
3.200 19.0
3.800 12.0
4.400 8.0
5.000 15.0
5.600 8.0
6.200 8.0
6.800 10.0
7.400 6.0
8.000 4.0
8.600 10.0
9.200 5.0
9.800 1.0
10.400 6.0
11.000 4.0
11.600 2.0
12.200 2.0
12.800 4.0
13.400 2.0
14.000 2.0
14.600 1.0
15.200 1.0
15.800 3.0
16.400 3.0
17.000 2.0
17.600 2.0
18.200 4.0
18.800 2.0
19.400 2.0
20.000 2.0
20.600 0.0
21.200 3.0
21.800 3.0
22.400 0.0
23.000 1.0
23.600 1.0
24.200 1.0
24.800 1.0
25.400 1.0
26.000 2.0
26.600 2.0
27.200 1.0
27.800 3.0
28.400 1.0
29.000 1.0
29.600 1.0
30.200 1.0
30.800 4.0
31.400 2.0
32.000 3.0
32.600 1.0
33.200 3.0
33.800 5.0
34.400 3.0
35.000 3.0
35.600 1.0
36.200 3.0
36.800 3.0
37.400 4.0
38.000 2.0
38.600 2.0
39.200 1.0
39.800 4.0
40.400 2.0
41.000 1.0
41.600 2.0
42.200 4.0
42.800 4.0
43.400 2.0
44.000 5.0
44.600 2.0
45.200 5.0
45.800 5.0
46.400 3.0
47.000 4.0
47.600 26.0
48.200 10.0
48.800 2.0
49.400 2.0
50.000 1.0
50.600 3.0
51.200 5.0
51.800 4.0
52.400 3.0
53.000 0.0
53.600 6.0
54.200 4.0
54.800 3.0
55.400 2.0
56.000 1.0
56.600 1.0
57.200 2.0
57.800 7.0
58.400 0.0
59.000 2.0
59.600 1.0
60.200 1.0
60.800 2.0
61.400 2.0
62.000 3.0
62.600 1.0
63.200 1.0
63.800 3.0
64.400 3.0
65.000 4.0
65.600 3.0
66.200 4.0
66.800 2.0
67.400 4.0
68.000 1.0
68.600 5.0
69.200 5.0
69.800 2.0
70.400 4.0
71.000 2.0
71.600 2.0
72.200 4.0
72.800 4.0
73.400 8.0
74.000 2.0
74.600 9.0
75.200 4.0
75.800 1.0
76.400 4.0
77.000 2.0
77.600 5.0
78.200 2.0
78.800 6.0
79.400 1.0
80.000 1.0
80.600 1.0
81.200 1.0
81.800 2.0
82.400 2.0
83.000 1.0
83.600 5.0
84.200 3.0
84.800 6.0
85.400 1.0
86.000 3.0
86.600 5.0
87.200 5.0
87.800 3.0
88.400 5.0
89.000 1.0
89.600 1.0
89.800 2.0

File: KEN009_XRD_40_85deg.xy
40.02000 45.0
40.18000 53.0
40.34000 53.0
40.50000 46.0
40.66000 44.0
40.82000 40.0
40.98000 32.0
41.14000 31.0
41.30000 44.0
41.46000 37.0
41.62000 46.0
41.78000 41.0
41.94000 44.0
42.10000 43.0
42.26000 39.0
42.42000 36.0
42.58000 48.0
42.74000 38.0
42.90000 39.0
43.06000 34.0
43.22000 35.0
43.38000 34.0
43.54000 37.0
43.70000 32.0
43.86000 50.0
44.02000 30.0
44.18000 53.0
44.34000 56.0
44.50000 96.0
44.66000 146.0
44.82000 133.0
44.98000 85.0
45.14000 50.0
45.30000 40.0
45.46000 47.0
45.62000 37.0
45.78000 40.0
45.94000 29.0
46.10000 37.0
46.26000 37.0
46.42000 51.0
46.58000 27.0
46.74000 28.0
46.90000 43.0
47.06000 35.0
47.22000 39.0
47.38000 25.0
47.54000 25.0
47.70000 32.0
47.86000 28.0
48.02000 38.0
48.18000 44.0
48.34000 29.0
48.50000 31.0
48.66000 39.0
48.82000 35.0
48.98000 29.0
49.14000 24.0
49.30000 47.0
49.46000 32.0
49.62000 37.0
49.78000 25.0
49.94000 33.0
50.10000 42.0
50.26000 25.0
50.42000 24.0
50.58000 41.0
50.74000 28.0
50.90000 37.0
51.06000 30.0
51.22000 42.0
51.38000 45.0
51.54000 32.0
51.70000 23.0
51.86000 34.0
52.02000 42.0
52.18000 42.0
52.34000 31.0
52.50000 26.0
52.66000 36.0
52.82000 43.0
52.98000 41.0
53.14000 43.0
53.30000 26.0
53.46000 30.0
53.62000 31.0
53.78000 40.0
53.94000 34.0
54.10000 28.0
54.26000 41.0
54.42000 34.0
54.58000 42.0
54.74000 49.0
54.90000 38.0
55.06000 83.0
55.22000 41.0
55.38000 47.0
55.54000 44.0
55.70000 34.0
55.86000 69.0
56.02000 37.0
56.18000 45.0
56.34000 86.0
56.50000 57.0
56.66000 99.0
56.82000 123.0
56.98000 42.0
57.14000 54.0
57.30000 43.0
57.46000 36.0
57.62000 65.0
57.78000 62.0
57.94000 46.0
58.10000 39.0
58.26000 42.0
58.42000 41.0
58.58000 48.0
58.74000 35.0
58.90000 32.0
59.06000 40.0
59.22000 58.0
59.38000 52.0
59.54000 42.0
59.70000 41.0
59.86000 43.0
60.02000 53.0
60.18000 50.0
60.34000 48.0
60.50000 49.0
60.66000 52.0
60.82000 47.0
60.98000 57.0
61.14000 79.0
61.30000 85.0
61.46000 92.0
61.62000 1050.0
61.78000 393.0
61.94000 938.0
62.10000 173.0
62.26000 119.0
62.42000 100.0
62.58000 101.0
62.74000 98.0
62.90000 95.0
63.06000 111.0
63.22000 121.0
63.38000 115.0
63.54000 107.0
63.70000 106.0
63.86000 122.0
64.02000 98.0
64.18000 134.0
64.34000 117.0
64.50000 128.0
64.66000 120.0
64.82000 144.0
64.98000 157.0
65.14000 173.0
65.30000 178.0
65.46000 213.0
65.62000 327.0
65.78000 1525.0
65.94000 3186.0
66.10000 809.0
66.26000 449.0
66.42000 1370.0
66.58000 545.0
66.74000 439.0
66.90000 429.0
67.06000 670.0
67.22000 659.0
67.38000 772.0
67.54000 965.0
67.70000 1127.0
67.86000 1438.0
68.02000 1624.0
68.18000 2103.0
68.34000 2732.0
68.50000 3932.0
68.66000 7193.0
68.82000 21683.0
68.98000 54422.0
69.14000 1909465.0
69.30000 1081502.0
69.46000 37441.0
69.62000 12892.0
69.78000 7872.0
69.94000 5587.0
70.10000 4343.0
70.26000 3810.0
70.42000 2851.0
70.58000 2398.0
70.74000 2066.0
70.90000 1702.0
71.06000 1408.0
71.22000 1119.0
71.38000 949.0
71.54000 774.0
71.70000 654.0
71.86000 566.0
72.02000 464.0
72.18000 398.0
72.34000 378.0
72.50000 318.0
72.66000 327.0
72.82000 249.0
72.98000 203.0
73.14000 195.0
73.30000 170.0
73.46000 146.0
73.62000 151.0
73.78000 117.0
73.94000 117.0
74.10000 105.0
74.26000 106.0
74.42000 96.0
74.58000 96.0
74.74000 99.0
74.90000 85.0
75.06000 140.0
75.22000 169.0
75.38000 74.0
75.54000 77.0
75.70000 74.0
75.86000 85.0
76.02000 77.0
76.18000 82.0
76.34000 84.0
76.50000 59.0
76.66000 43.0
76.82000 53.0
76.98000 40.0
77.14000 40.0
77.30000 46.0
77.46000 43.0
77.62000 53.0
77.78000 44.0
77.94000 55.0
78.10000 48.0
78.26000 40.0
78.42000 50.0
78.58000 36.0
78.74000 39.0
78.90000 43.0
79.06000 34.0
79.22000 30.0
79.38000 35.0
79.54000 35.0
79.70000 40.0
79.86000 24.0
80.02000 30.0
80.18000 30.0
80.34000 41.0
80.50000 23.0
80.66000 33.0
80.82000 43.0
80.98000 29.0
81.14000 33.0
81.30000 25.0
81.46000 32.0
81.62000 29.0
81.78000 27.0
81.94000 28.0
82.10000 25.0
82.26000 38.0
82.42000 32.0
82.58000 43.0
82.74000 24.0
82.90000 23.0
83.06000 19.0
83.22000 34.0
83.38000 30.0
83.54000 27.0
83.70000 23.0
83.86000 13.0
84.02000 25.0
84.18000 25.0
84.34000 25.0
84.50000 29.0
84.66000 31.0
84.82000 35.0
84.98000 20.0